acc_x[mg],acc_y[mg],acc_z[mg]
528.02,-300.36,842.53
522.77,-289.63,838.87
517.04,-281.45,829.60
514.84,-275.60,815.81
514.84,-275.11,804.59
516.79,-273.77,801.30
518.13,-271.33,796.66
522.04,-275.23,787.75
529.24,-283.04,785.07
536.56,-289.26,788.97
542.78,-291.58,794.10
545.10,-297.19,799.59
545.83,-300.12,807.64
541.92,-298.53,813.86
538.02,-297.44,812.28
533.14,-295.97,816.55
531.92,-295.36,817.77
531.92,-295.85,819.23
534.36,-296.09,822.04
538.51,-295.85,823.38
541.56,-295.12,828.14
541.92,-297.07,826.92
538.14,-289.63,826.31
544.24,-293.17,821.18
537.78,-285.36,820.69
533.02,-287.19,810.69
528.75,-289.14,800.56
532.29,-286.94,800.44
533.02,-286.70,800.32
533.02,-282.80,801.66
531.68,-281.94,804.10
532.29,-290.73,806.18
535.70,-297.80,811.18
537.53,-292.68,818.74
544.49,-298.29,819.47
549.85,-300.97,824.60
553.15,-303.78,825.33
545.71,-300.97,821.43
540.34,-295.85,815.57
535.95,-292.43,812.76
532.65,-286.70,816.91
533.26,-279.26,816.18
529.85,-279.62,809.10
530.82,-281.09,807.15
527.77,-276.82,810.08
526.43,-273.77,806.54
528.26,-277.55,806.18
529.85,-281.45,807.64
532.53,-281.82,808.74
534.85,-281.45,814.59
540.34,-284.63,820.45
538.75,-285.85,820.69
539.36,-287.31,817.40
541.31,-287.92,820.33
540.70,-288.65,819.72
538.26,-288.16,817.40
536.80,-289.02,813.86
539.73,-288.77,813.37
539.85,-286.94,813.37
540.22,-285.60,812.28
536.07,-286.33,810.57
536.56,-281.21,811.06
539.97,-283.16,811.91
537.29,-280.48,810.69
531.43,-279.14,808.37
532.29,-277.31,811.91
538.63,-279.14,821.30
534.24,-285.48,817.16
526.19,-288.41,806.18
530.58,-293.90,806.05
535.70,-291.21,813.01
538.87,-287.68,815.45
541.07,-287.68,820.57
541.80,-287.80,825.57
536.43,-286.46,826.18
533.02,-279.62,826.06
530.82,-279.01,820.08
530.58,-283.28,811.91
534.97,-282.31,812.15
539.36,-280.72,815.81
539.73,-283.89,810.08
539.24,-289.51,802.76
539.00,-291.95,802.64
537.17,-289.14,806.18
535.58,-284.99,809.23
534.48,-280.60,815.57
535.58,-283.04,817.89
532.90,-282.80,819.47
531.31,-279.14,827.65
529.97,-281.94,828.87
526.19,-285.24,819.84
525.94,-285.11,817.64
530.09,-286.09,817.28
533.63,-281.33,821.30
536.31,-285.48,819.60
531.19,-286.09,816.06
534.24,-284.63,818.13
534.73,-284.26,816.55
534.73,-278.40,816.18
531.68,-281.21,813.50
538.39,-284.50,816.91
550.22,-293.41,826.06
549.73,-294.75,832.16
537.65,-290.24,840.09
539.73,-288.53,839.85
540.34,-291.09,833.26
539.48,-293.17,817.89
536.07,-286.94,807.88
532.53,-284.26,799.34
523.01,-275.96,797.03
518.50,-262.79,804.96
516.06,-260.23,812.76
515.82,-261.45,814.11
515.94,-260.84,815.20
518.38,-261.08,819.47
528.38,-266.57,823.62
535.95,-276.82,821.18
533.75,-279.87,817.28
533.63,-278.04,818.50
533.99,-279.62,820.21
532.65,-277.43,823.26
532.16,-275.48,823.74
532.77,-277.55,822.04
533.14,-278.77,822.04
533.87,-278.16,820.94
533.75,-278.40,821.91
534.24,-278.04,820.57
533.63,-276.09,821.06
534.48,-272.91,824.72
533.51,-274.38,821.67
529.85,-276.94,817.40
528.63,-276.09,818.25
530.70,-276.45,816.18
534.48,-269.86,820.08
533.38,-270.96,821.79
531.43,-277.31,814.59
531.19,-279.75,816.06
531.92,-279.26,819.47
531.43,-277.18,821.55
533.38,-279.50,822.04
532.53,-281.09,825.45
531.31,-278.04,826.31
534.24,-277.31,824.11
534.24,-279.75,822.89
533.02,-280.97,818.13
534.12,-273.89,820.82
535.58,-274.01,823.01
533.51,-277.06,817.40
532.90,-276.09,815.57
531.68,-275.11,814.47
531.92,-273.04,815.20
532.16,-277.79,813.13
531.55,-277.18,813.86
534.12,-275.35,820.21
533.75,-277.67,820.82
530.58,-277.06,820.45
529.36,-275.35,821.67
531.92,-272.43,826.06
532.41,-275.23,825.09
529.36,-280.60,816.91
527.53,-270.47,821.30
537.04,-272.06,827.77
539.36,-278.16,823.50
540.83,-280.84,823.87
540.46,-281.94,824.35
534.97,-279.62,819.23
526.80,-271.82,818.86
526.55,-269.74,818.86
527.16,-267.55,819.60
529.48,-268.03,820.57
530.21,-271.33,816.67
533.99,-276.57,815.94
535.46,-276.57,819.60
535.95,-277.18,819.47
532.65,-276.21,820.69
531.55,-276.09,821.79
530.46,-273.52,823.13
528.02,-269.99,822.40
530.94,-272.18,821.18
522.89,-277.92,810.32
521.43,-260.59,815.81
532.90,-263.15,826.55
534.97,-269.74,818.99
539.48,-275.96,818.38
541.56,-277.92,823.38
538.26,-276.09,821.91
533.51,-277.92,818.99
526.67,-275.96,819.11
520.94,-271.69,821.91
523.75,-270.96,818.62
528.26,-271.69,820.57
530.58,-274.62,823.99
529.72,-277.43,818.38
532.53,-277.18,816.91
535.21,-279.62,821.67
529.60,-278.28,824.72
528.50,-280.23,823.26
528.99,-279.38,826.92
529.24,-278.89,830.33
526.92,-281.21,829.97
528.26,-279.01,829.84
529.97,-280.23,832.89
527.04,-277.18,832.77
524.11,-276.94,827.28
520.45,-273.89,822.89
519.72,-270.47,821.18
520.94,-273.28,820.57
523.99,-277.43,822.28
529.72,-277.18,825.57
530.94,-279.26,825.09
532.53,-282.06,823.99
531.43,-277.43,824.72
535.95,-279.14,827.65
531.80,-279.01,821.79
528.99,-280.60,811.79
531.68,-281.09,810.45
536.92,-275.96,814.84
539.61,-274.62,814.47
539.85,-279.75,814.11
536.80,-277.92,818.62
533.51,-276.57,819.11
528.02,-275.23,818.99
526.06,-275.23,819.84
524.60,-273.89,824.48
525.21,-273.77,826.79
525.45,-273.28,827.89
526.43,-274.62,828.14
526.19,-275.23,827.40
527.53,-275.23,825.82
530.33,-275.60,823.99
530.58,-275.96,822.65
529.48,-278.40,819.60
529.48,-278.04,817.64
530.94,-278.89,816.42
532.90,-277.43,818.74
532.29,-275.11,819.60
532.90,-280.11,816.18
534.12,-278.04,817.64
536.19,-278.65,819.96
535.46,-276.94,818.74
532.90,-278.16,818.01
532.16,-277.79,820.21
529.60,-281.94,821.43
528.50,-280.11,823.26
529.85,-278.40,825.94
531.07,-279.62,827.77
530.70,-279.99,827.28
527.65,-277.06,827.53
527.41,-275.96,826.06
524.72,-275.84,823.74
524.60,-276.21,818.25
527.28,-271.94,819.84
530.58,-272.18,821.18
530.94,-276.09,815.20
533.87,-275.48,817.16
534.60,-273.28,821.55
532.65,-275.60,818.62
531.07,-278.53,816.18
530.70,-278.53,817.03
530.33,-277.92,819.35
530.33,-275.35,822.40
532.53,-273.04,826.43
531.68,-273.16,826.67
531.07,-275.48,821.55
531.43,-276.57,820.57
533.51,-276.82,820.82
532.65,-277.31,819.96
530.70,-278.40,818.62
530.46,-276.45,819.60
529.48,-275.23,821.79
527.04,-271.33,822.28
526.80,-272.06,824.60
524.72,-274.62,821.55
524.97,-271.94,823.38
528.87,-273.89,822.89
526.43,-269.99,823.74
526.19,-271.57,823.13
528.02,-276.57,820.45
528.87,-279.38,822.16
529.72,-277.67,823.38
530.94,-279.87,824.23
534.48,-283.53,823.87
533.51,-281.58,826.18
531.80,-279.01,827.04
531.31,-277.92,823.50
529.60,-277.67,821.18
530.46,-278.89,817.52
529.11,-273.89,818.74
533.99,-273.52,816.42
534.12,-277.55,814.96
534.36,-276.21,817.89
533.02,-274.62,818.25
529.36,-274.38,817.52
528.50,-276.82,818.50
525.21,-275.72,819.84
526.19,-275.23,823.13
528.99,-275.84,827.89
530.09,-276.57,829.36
529.72,-277.18,826.67
532.53,-277.92,826.18
533.99,-277.55,825.21
532.65,-276.21,823.87
533.14,-275.84,821.79
531.07,-275.96,818.01
528.99,-276.57,814.47
528.87,-274.99,819.11
529.48,-274.01,820.08
530.09,-271.21,821.18
530.33,-274.01,820.57
527.77,-273.16,819.72
529.72,-275.48,818.74
530.33,-273.65,820.08
530.94,-271.69,821.67
531.68,-276.70,817.77
532.04,-280.97,818.86
531.43,-282.55,820.08
533.02,-281.58,819.35
536.80,-286.94,818.74
535.82,-285.48,822.89
534.48,-284.38,822.65
531.31,-274.38,824.48
529.24,-270.84,826.43
522.77,-272.79,826.18
521.06,-266.81,827.28
524.60,-270.35,823.13
527.77,-279.75,815.45
533.02,-280.48,816.18
538.63,-280.72,818.13
537.65,-280.84,815.57
529.48,-281.70,812.15
525.82,-279.38,813.62
528.14,-278.28,820.82
529.97,-278.04,821.43
538.14,-283.16,820.21
557.17,-294.14,830.09
552.05,-300.24,835.33
544.61,-287.07,831.67
550.95,-285.85,836.55
538.51,-281.21,832.65
520.09,-268.03,817.16
510.81,-265.84,808.49
509.11,-264.86,800.69
521.18,-270.23,795.20
540.46,-276.33,803.00
553.76,-282.31,805.57
551.81,-284.75,807.15
548.63,-282.19,807.27
545.22,-279.75,809.35
535.46,-274.62,809.10
531.19,-269.74,810.57
533.14,-274.50,810.08
536.56,-281.70,809.84
539.00,-284.26,810.81
541.92,-284.26,812.89
545.10,-286.82,819.23
546.56,-286.58,822.16
543.51,-282.67,821.30
547.29,-287.43,816.30
548.27,-292.19,810.69
549.98,-294.26,802.64
548.27,-283.41,809.96
539.85,-276.33,819.96
531.31,-276.82,815.08
529.48,-272.43,817.89
525.45,-269.86,817.03
528.75,-274.13,814.23
536.07,-279.38,811.54
539.48,-282.67,810.81
546.68,-284.02,812.52
548.63,-284.99,816.42
544.61,-284.02,817.28
541.68,-284.14,813.74
538.14,-281.58,813.98
536.31,-281.33,812.03
535.95,-280.36,811.18
539.61,-281.33,812.52
539.24,-283.77,812.89
538.14,-283.16,812.64
539.85,-282.55,817.16
539.36,-281.94,820.82
539.12,-278.77,818.99
537.29,-280.36,817.03
534.48,-278.53,819.35
534.60,-279.99,817.03
532.77,-277.43,815.20
533.38,-275.84,818.13
535.58,-280.11,816.30
537.41,-286.33,815.33
537.53,-284.63,818.86
538.39,-280.36,820.45
538.26,-283.04,819.60
533.51,-282.43,817.40
534.24,-279.75,817.64
536.19,-280.36,815.57
533.51,-280.72,811.06
533.75,-280.84,808.74
537.65,-276.82,812.52
541.68,-276.09,814.59
543.51,-278.77,813.13
552.05,-280.23,818.86
552.17,-289.38,818.99
535.21,-283.28,811.54
531.43,-276.57,813.74
528.02,-273.52,816.91
520.33,-271.21,811.30
522.16,-270.23,810.32
533.99,-272.55,818.50
541.07,-278.04,820.69
543.02,-281.33,817.28
545.95,-283.04,820.21
546.80,-282.19,823.38
542.29,-281.21,818.74
537.53,-278.65,816.91
535.21,-279.26,813.37
533.87,-279.50,808.62
532.41,-276.45,810.93
535.58,-274.26,814.47
538.87,-277.67,814.47
536.07,-278.16,812.52
538.39,-276.57,814.72
538.63,-276.45,814.84
536.92,-276.45,813.13
534.36,-277.55,812.64
537.90,-284.75,813.86
538.26,-286.21,816.42
539.85,-282.67,821.55
543.02,-284.87,823.38
539.97,-286.94,820.94
535.70,-282.31,821.06
534.60,-279.26,820.45
533.63,-280.11,815.33
531.43,-282.31,808.62
533.26,-280.23,812.40
539.97,-275.96,817.89
538.63,-279.14,813.74
539.48,-282.19,812.64
539.24,-279.01,816.18
536.92,-277.06,816.79
532.65,-280.36,814.11
528.99,-279.62,812.15
530.70,-278.53,816.42
535.09,-280.23,817.64
536.92,-277.18,819.84
541.80,-277.92,825.45
543.27,-284.38,822.28
541.68,-282.55,817.52
541.19,-283.04,816.30
537.53,-281.45,815.81
535.34,-277.43,817.40
534.60,-276.57,816.55
530.46,-277.67,815.57
529.85,-278.53,814.84
530.70,-276.21,817.03
533.75,-274.38,819.23
537.65,-277.18,818.01
536.19,-280.11,813.50
536.92,-278.16,814.59
537.90,-277.92,814.23
536.92,-273.65,816.91
534.48,-275.60,816.55
534.24,-279.50,814.96
534.12,-279.99,817.77
533.02,-276.33,818.25
536.68,-278.89,818.62
539.48,-282.92,818.74
537.65,-282.80,819.35
530.70,-279.26,817.89
532.29,-276.21,815.69
537.41,-280.11,813.86
537.65,-284.50,810.69
540.34,-279.62,816.67
543.63,-281.94,820.57
537.65,-283.41,816.55
532.16,-277.43,818.50
529.85,-274.62,820.08
531.07,-275.84,818.13
529.97,-280.23,813.62
529.36,-280.48,813.74
534.97,-279.38,820.69
537.53,-280.36,822.65
531.80,-280.60,818.62
531.19,-283.89,817.64
530.09,-279.87,818.25
533.99,-276.70,815.81
537.78,-279.87,818.38
542.29,-285.72,815.57
545.58,-286.33,813.62
544.49,-285.97,817.28
541.31,-281.58,823.26
537.29,-281.82,820.69
531.43,-280.97,818.25
525.33,-276.94,818.25
527.89,-273.04,820.94
529.11,-280.36,817.40
529.24,-276.21,816.06
537.29,-280.23,816.30
541.07,-279.87,818.62
539.36,-281.09,816.67
535.58,-283.89,814.96
537.04,-284.63,817.16
533.75,-281.58,819.72
538.87,-281.82,819.35
539.85,-286.33,818.38
536.80,-283.89,817.77
537.41,-281.33,815.57
537.29,-280.36,816.18
534.85,-280.23,813.13
531.31,-278.28,808.49
536.56,-275.11,813.62
538.87,-278.04,815.33
534.60,-278.04,813.98
536.80,-277.43,815.94
537.41,-276.09,820.21
538.87,-278.89,818.25
533.02,-281.45,815.08
529.36,-279.75,814.72
530.46,-276.82,820.21
534.97,-276.33,825.21
537.04,-274.62,826.43
542.29,-278.77,824.60
542.90,-284.87,821.30
536.19,-283.89,811.91
531.68,-277.79,810.32
532.41,-274.13,814.23
534.36,-273.04,813.01
534.24,-276.82,812.03
535.70,-277.92,812.15
539.00,-280.84,815.33
537.78,-278.77,817.03
537.29,-276.57,815.94
537.41,-277.55,817.52
534.24,-278.65,815.57
532.29,-277.18,814.96
536.07,-277.92,816.18
537.78,-274.13,818.25
537.65,-274.01,819.60
534.85,-278.16,821.55
528.38,-274.50,829.60
528.50,-279.38,821.06
533.87,-277.06,816.06
552.66,-289.02,814.35
563.76,-292.31,810.93
561.69,-296.09,812.40
548.15,-295.12,810.93
534.60,-281.82,812.76
523.50,-273.52,817.28
518.99,-264.37,820.33
522.40,-264.86,820.45
526.43,-269.38,819.96
531.31,-271.45,816.79
534.48,-274.13,814.96
539.73,-274.50,817.77
542.66,-280.60,816.06
538.14,-281.82,811.42
535.82,-279.75,812.89
537.17,-276.45,818.38
536.68,-275.23,821.30
535.82,-274.38,821.43
534.85,-276.70,822.04
538.51,-278.04,820.82
538.39,-277.43,817.77
539.73,-278.16,816.30
539.85,-276.45,815.94
539.97,-274.01,817.03
538.14,-276.94,812.52
535.09,-277.79,808.49
536.80,-276.70,810.81
540.34,-275.72,814.23
541.44,-275.11,814.35
539.97,-279.14,812.89
