acc_x[mg],acc_y[mg],acc_z[mg]
562.42,-168.24,827.77
554.25,-165.68,825.09
552.29,-162.14,824.96
552.90,-159.70,831.06
556.69,-166.65,833.87
558.88,-170.68,833.87
560.59,-175.44,830.82
562.05,-176.17,833.63
562.54,-177.75,840.34
563.52,-175.44,849.97
570.35,-176.66,857.29
565.47,-172.14,850.95
557.54,-174.34,835.94
555.22,-174.95,828.38
551.20,-173.85,813.25
550.59,-169.70,805.08
560.22,-171.65,814.84
565.47,-170.56,821.67
564.13,-171.17,816.91
563.64,-173.24,821.06
567.42,-178.12,830.58
559.74,-173.36,827.28
555.83,-172.26,819.96
556.08,-169.70,822.04
558.39,-178.24,821.06
559.86,-179.22,821.91
564.37,-181.29,823.38
569.01,-182.27,830.45
570.72,-185.44,832.53
565.23,-185.68,827.77
564.37,-184.95,827.89
562.18,-180.68,826.43
562.05,-182.02,825.57
560.35,-182.63,825.09
562.66,-181.17,823.62
565.47,-179.46,827.28
572.30,-184.83,830.58
568.76,-183.98,834.72
563.03,-182.88,828.75
555.10,-179.22,823.26
555.22,-179.22,820.69
559.74,-182.63,823.99
564.25,-183.98,829.23
564.49,-182.15,827.40
563.27,-181.29,821.91
564.74,-180.68,826.06
566.81,-180.80,828.01
559.74,-178.97,821.43
557.66,-181.29,823.01
559.98,-179.95,830.33
555.22,-179.34,822.16
553.15,-179.34,815.81
561.08,-179.71,824.84
562.66,-182.63,828.99
564.01,-182.76,829.23
565.59,-185.93,828.87
559.98,-181.90,827.53
561.20,-183.85,823.26
562.30,-184.95,824.72
570.47,-184.83,832.28
569.25,-189.47,826.79
560.59,-182.63,814.96
565.71,-187.39,822.89
568.89,-188.12,827.28
563.52,-185.20,823.38
563.27,-185.44,829.23
562.91,-182.76,831.19
560.35,-184.34,825.21
559.86,-184.22,821.30
561.44,-183.73,821.43
565.35,-184.22,825.45
564.62,-178.61,828.75
563.27,-177.14,825.45
561.44,-181.54,822.52
559.25,-178.36,820.94
561.08,-177.39,825.09
559.49,-179.71,824.23
557.42,-181.05,822.16
563.27,-181.17,828.38
561.57,-181.66,829.48
557.91,-178.49,825.33
559.25,-179.34,825.70
560.83,-181.78,821.67
561.57,-181.90,822.65
567.42,-184.22,829.23
572.91,-185.56,829.60
567.79,-183.24,830.21
563.15,-182.02,827.40
559.74,-182.39,820.21
562.66,-181.90,822.52
567.79,-182.63,828.50
568.40,-181.29,828.26
567.42,-182.27,823.99
565.35,-180.07,820.82
565.35,-182.27,818.13
562.05,-175.68,821.55
560.71,-172.39,821.79
557.66,-173.97,820.69
558.88,-177.75,820.94
558.64,-178.00,821.18
563.76,-181.05,824.72
566.08,-178.24,831.06
565.71,-180.68,831.55
564.37,-181.78,827.28
562.30,-181.90,824.23
563.15,-181.05,825.82
563.27,-179.95,828.14
560.83,-178.36,827.89
561.20,-174.09,822.77
561.81,-175.07,819.72
561.08,-179.58,817.64
563.15,-180.19,823.38
565.96,-180.44,828.26
563.15,-178.97,824.84
559.13,-176.17,822.89
564.13,-181.41,826.18
558.64,-174.83,832.28
569.37,-185.68,830.09
561.08,-174.58,832.16
557.66,-176.05,819.47
559.13,-174.22,824.72
562.18,-177.02,831.43
561.69,-174.58,828.38
563.27,-178.00,829.72
557.78,-179.22,818.62
558.64,-180.19,819.11
564.37,-179.71,825.09
564.49,-176.53,826.31
567.54,-177.02,830.33
567.42,-180.32,828.62
564.62,-177.39,827.28
566.93,-176.66,826.67
564.98,-174.83,825.45
564.01,-170.31,826.31
563.27,-173.00,823.87
559.13,-175.80,821.79
558.64,-175.07,824.96
561.93,-173.00,826.55
563.88,-173.85,827.40
566.45,-174.34,830.33
564.74,-175.31,829.84
560.59,-172.02,821.67
560.10,-172.51,819.72
560.10,-172.51,821.06
559.37,-173.48,820.82
562.18,-169.34,823.38
566.81,-170.56,825.45
565.71,-173.73,824.84
561.69,-176.29,822.77
560.83,-173.36,823.13
561.69,-170.31,828.75
561.93,-172.02,830.21
561.20,-173.85,826.67
563.76,-176.05,827.04
564.01,-177.14,826.43
564.13,-176.78,824.35
562.54,-177.14,826.67
565.47,-174.95,828.50
564.86,-175.44,827.53
563.03,-175.68,826.43
563.15,-176.78,829.84
558.27,-174.95,829.84
555.95,-173.73,824.72
555.10,-173.36,825.57
559.61,-171.29,832.28
564.86,-174.83,832.04
562.54,-176.17,828.38
562.05,-174.46,824.11
560.96,-175.07,821.91
561.20,-172.02,822.52
566.81,-173.36,827.77
570.84,-178.97,828.01
564.62,-179.58,825.94
561.81,-179.46,827.65
560.10,-172.75,837.04
559.00,-171.29,839.73
554.61,-173.12,828.26
554.37,-171.41,822.16
557.78,-170.68,824.96
556.69,-169.95,822.16
554.61,-170.19,814.96
558.88,-166.29,822.28
564.86,-164.82,826.55
566.45,-173.24,821.18
562.91,-172.87,820.21
561.69,-172.26,821.55
564.01,-172.51,823.50
567.67,-174.95,826.92
570.23,-180.56,825.09
570.11,-178.97,827.77
569.74,-179.22,833.75
566.45,-173.24,833.63
561.57,-173.12,827.28
560.71,-172.02,825.70
566.20,-174.46,827.16
565.10,-172.87,825.94
565.10,-174.46,824.48
561.57,-173.97,823.26
557.54,-171.04,823.74
558.27,-169.58,826.92
555.71,-166.77,827.40
558.52,-166.90,825.82
562.05,-171.04,828.99
562.18,-167.63,827.77
560.96,-173.12,823.13
558.39,-170.56,822.65
558.03,-164.21,825.94
557.30,-167.14,824.72
556.44,-172.02,825.82
558.64,-173.36,826.67
558.52,-172.51,823.50
572.55,-180.56,838.99
567.67,-177.14,829.72
567.79,-179.83,824.60
568.52,-177.88,830.58
564.13,-175.56,826.31
560.59,-173.85,822.77
558.64,-173.73,820.33
560.35,-170.68,821.43
565.23,-176.05,822.28
565.59,-176.66,823.26
565.71,-174.46,825.21
566.08,-171.90,826.92
559.86,-170.19,822.89
556.69,-173.36,821.43
560.83,-173.36,826.55
562.66,-172.63,829.60
565.23,-171.53,829.97
564.49,-174.22,828.01
565.35,-171.78,828.50
566.08,-170.68,830.09
563.76,-170.56,829.23
560.47,-170.80,827.28
560.47,-172.02,827.65
558.64,-169.58,821.55
557.05,-167.14,821.91
560.96,-171.78,825.45
564.13,-171.04,828.38
565.71,-175.07,823.62
560.47,-173.00,820.45
563.64,-174.09,819.23
561.93,-176.78,820.82
564.37,-173.00,828.62
564.49,-171.04,829.72
558.64,-176.78,822.89
559.86,-176.66,830.45
568.89,-181.29,837.90
567.67,-181.90,835.21
565.71,-180.68,829.72
562.79,-176.29,827.28
561.57,-175.56,826.67
563.64,-177.39,827.65
563.88,-179.71,823.26
561.32,-176.90,816.06
563.27,-173.36,818.13
568.89,-171.04,823.26
568.28,-176.29,823.99
565.23,-177.75,823.38
562.66,-172.87,821.79
560.59,-169.21,819.23
559.86,-170.56,822.04
563.15,-176.78,828.50
566.93,-174.70,833.14
564.49,-173.12,826.67
562.79,-171.17,823.13
562.54,-173.61,823.01
567.42,-173.48,827.40
570.11,-174.95,834.48
566.81,-173.61,829.84
560.35,-170.19,821.06
560.22,-171.17,820.94
561.81,-172.26,824.23
561.08,-173.12,825.09
560.35,-170.68,823.26
562.66,-167.87,825.70
564.01,-173.48,823.13
561.20,-173.00,819.47
562.30,-174.83,819.11
563.03,-173.24,820.57
564.98,-170.43,826.06
566.57,-175.44,828.50
562.66,-177.63,827.16
561.93,-177.02,827.04
563.76,-178.61,831.06
565.10,-176.66,831.55
564.98,-177.88,832.28
566.08,-178.24,832.04
567.91,-179.34,827.65
564.13,-174.70,822.77
563.76,-176.53,819.47
564.98,-176.53,817.52
565.96,-173.73,819.11
567.91,-173.61,818.13
564.25,-176.41,816.91
563.40,-174.83,819.11
564.01,-171.90,823.38
563.64,-170.68,831.31
562.54,-172.02,831.55
559.61,-173.61,826.18
559.37,-172.63,827.40
561.69,-172.75,831.19
564.74,-171.29,833.14
565.35,-174.22,824.72
565.35,-176.53,820.82
568.89,-179.10,825.21
567.06,-177.39,824.48
561.81,-175.44,820.69
558.03,-174.58,820.45
555.95,-172.51,817.16
558.52,-176.53,817.52
563.15,-171.65,820.69
568.28,-174.34,823.26
573.03,-179.34,826.67
567.18,-179.46,823.38
563.27,-178.49,821.06
564.74,-177.63,821.30
561.93,-172.26,822.77
566.08,-179.10,826.18
564.49,-183.37,830.21
567.91,-183.85,833.26
570.35,-183.61,835.58
569.98,-184.83,834.97
569.86,-185.68,833.02
569.25,-187.27,828.50
566.08,-183.00,821.67
565.71,-180.93,820.94
563.27,-181.29,819.60
560.83,-180.93,816.06
562.30,-177.02,819.47
566.45,-174.70,822.28
562.66,-177.51,814.96
563.03,-181.41,813.86
565.59,-181.05,821.06
562.42,-178.24,823.99
558.64,-176.05,823.74
562.66,-179.83,828.14
564.86,-182.76,828.01
565.23,-180.93,829.48
566.57,-180.19,833.14
568.15,-178.73,831.67
564.98,-179.22,825.33
565.35,-179.71,820.57
565.23,-176.66,823.87
562.66,-177.39,819.35
554.37,-174.70,815.81
553.27,-170.19,818.13
555.22,-169.58,819.96
556.32,-173.61,816.91
562.66,-175.19,818.99
573.28,-180.07,822.28
573.40,-179.83,819.23
573.28,-183.98,813.13
575.47,-185.44,815.57
573.52,-182.02,821.55
570.96,-180.93,821.55
569.62,-185.07,826.06
567.91,-186.05,829.84
566.45,-182.76,832.65
569.13,-183.85,835.58
568.03,-186.05,830.33
563.64,-183.00,821.79
560.59,-181.54,814.96
562.30,-180.44,813.13
565.84,-185.44,815.81
566.81,-183.98,821.91
566.45,-177.27,825.45
565.10,-179.34,824.60
564.01,-181.29,822.65
561.69,-180.68,823.50
560.35,-174.70,828.87
558.52,-175.07,827.28
559.98,-182.39,821.91
564.62,-183.49,822.16
569.62,-188.61,821.06
570.47,-189.34,818.74
571.69,-190.08,820.21
570.84,-188.98,823.01
565.47,-184.95,824.48
561.44,-184.10,828.26
554.86,-180.93,825.33
552.54,-181.78,820.33
554.25,-180.44,823.26
557.17,-183.24,824.48
558.03,-183.73,825.09
562.66,-183.24,829.11
567.30,-188.49,828.87
562.91,-189.10,823.99
561.93,-190.08,819.47
564.25,-191.42,822.04
565.10,-186.54,825.21
563.15,-183.73,825.09
562.91,-188.73,824.35
563.52,-188.12,826.67
566.32,-189.47,829.23
566.69,-185.68,832.28
567.30,-190.81,827.28
566.20,-189.83,824.96
566.20,-189.83,824.48
565.23,-188.73,820.57
561.69,-186.05,818.62
562.54,-185.56,820.69
560.71,-182.39,824.60
560.96,-178.24,825.21
558.76,-182.39,821.91
554.49,-181.41,817.77
556.20,-178.97,817.28
559.49,-181.29,820.82
563.03,-184.83,825.21
563.40,-188.12,818.74
564.49,-188.25,819.60
567.91,-187.76,824.60
564.74,-187.27,822.52
566.57,-189.59,821.91
565.71,-188.61,823.74
567.67,-188.98,826.67
568.40,-186.66,830.33
566.57,-187.27,832.28
561.08,-186.42,828.14
555.34,-183.85,820.45
558.39,-184.71,822.65
564.37,-185.68,828.38
562.42,-186.05,825.21
561.44,-187.39,820.45
561.93,-193.61,817.16
565.47,-194.96,815.33
567.18,-197.52,822.28
569.13,-191.17,833.26
566.93,-190.20,833.99
557.54,-188.98,824.23
557.30,-189.34,825.09
562.66,-188.49,828.50
564.01,-189.59,827.89
567.18,-189.22,825.82
568.52,-190.20,824.96
568.64,-191.54,822.16
565.47,-187.51,819.72
561.08,-183.85,819.60
559.61,-181.78,820.21
556.93,-179.95,821.30
562.54,-177.14,824.35
561.44,-181.66,821.91
558.64,-183.61,812.28
563.15,-183.37,813.86
564.49,-181.41,821.43
566.20,-186.17,823.01
565.23,-190.44,819.72
563.52,-191.54,818.86
565.59,-190.20,824.60
566.93,-189.95,832.41
564.62,-189.83,834.36
562.79,-187.15,834.48
564.37,-184.46,835.33
563.27,-185.56,828.99
560.22,-183.24,821.06
561.44,-186.05,817.64
561.44,-184.71,817.77
563.64,-183.98,819.35
563.52,-183.24,820.21
564.74,-181.17,818.62
567.18,-182.63,820.57
563.52,-184.46,819.84
561.44,-183.24,817.77
564.13,-185.20,820.33
565.23,-179.95,827.53
567.42,-180.19,828.14
561.81,-183.73,823.87
561.32,-185.68,827.53
561.32,-185.68,829.72
564.98,-187.76,831.80
565.35,-186.05,835.21
563.15,-189.71,824.35
563.76,-190.20,824.48
571.33,-191.91,828.26
569.37,-191.17,823.50
567.30,-189.83,818.99
562.79,-187.15,816.79
560.47,-182.02,817.03
559.25,-181.78,820.08
554.25,-180.68,817.64
556.20,-179.71,819.35
556.20,-176.05,820.45
555.71,-178.97,821.91
560.96,-182.51,828.50
563.27,-182.88,833.26
562.18,-180.68,827.77
557.78,-174.83,827.04
563.40,-177.63,831.92
564.74,-180.07,834.48
561.57,-177.75,830.45
560.96,-176.90,826.43
557.66,-177.27,825.82
554.12,-175.68,827.53
553.03,-173.12,827.16
553.39,-173.97,821.06
556.93,-176.41,822.28
565.35,-181.54,825.45
566.08,-182.15,827.40
568.40,-183.98,827.89
565.96,-183.49,826.18
561.57,-182.63,819.72
559.13,-181.90,818.74
563.27,-177.88,824.96
564.74,-182.76,825.45
561.20,-185.32,822.04
562.54,-186.05,824.60
563.40,-187.27,825.45
563.64,-184.95,828.38
568.40,-188.12,832.16
563.64,-187.27,823.99
560.22,-184.71,821.43
563.64,-185.20,824.35
560.47,-184.83,818.13
559.13,-185.81,816.06
564.01,-182.76,824.23
565.35,-180.56,825.21
561.20,-183.73,819.11
558.27,-182.15,820.21
559.49,-180.19,823.01
558.39,-179.10,825.09
562.79,-184.83,829.36
565.96,-184.10,831.06
564.86,-182.02,828.38
565.71,-182.39,826.92
567.79,-185.32,828.01
565.47,-183.49,818.50
567.06,-182.02,818.99
572.06,-183.24,825.21
566.69,-185.07,821.67
564.25,-184.95,821.06
563.27,-185.44,823.38
561.81,-182.76,825.57
559.49,-181.90,822.77
560.10,-183.00,822.40
563.03,-183.00,825.57
561.81,-185.07,821.43
562.30,-182.27,822.65
563.64,-187.15,817.64
559.49,-188.37,812.64
566.93,-187.39,823.50
568.28,-187.76,827.28
564.25,-188.86,820.94
564.37,-188.61,825.57
565.47,-190.56,830.33
566.93,-189.10,830.82
566.08,-189.83,831.31
565.47,-192.27,823.38
562.30,-188.00,818.62
564.25,-185.32,819.72
564.86,-184.59,818.50
562.91,-185.81,816.42
564.37,-182.15,822.28
564.25,-181.90,823.62
561.57,-183.49,821.18
557.91,-178.85,823.62
560.96,-181.05,824.84
562.66,-181.54,829.36
562.42,-183.24,822.65
565.10,-184.95,821.91
570.59,-186.29,826.43
567.91,-184.46,821.55
565.47,-182.88,819.35
565.71,-180.93,820.69
564.13,-180.93,817.28
561.69,-178.24,816.42
562.54,-183.49,817.52
560.22,-184.10,817.64
557.17,-179.71,817.40
555.95,-179.46,820.08
553.88,-182.88,819.60
553.15,-183.49,820.82
561.32,-182.63,826.06
565.47,-187.76,828.26
567.30,-189.83,822.65
571.08,-193.13,816.18
574.25,-197.15,821.55
572.79,-195.93,829.11
569.13,-197.64,823.99
566.81,-199.84,823.74
566.93,-198.74,828.26
570.11,-201.30,829.60
569.37,-198.25,829.84
567.42,-197.64,824.23
569.37,-199.71,818.99
570.23,-201.79,814.23
569.50,-200.81,810.81
570.11,-200.81,810.93
572.42,-200.20,814.96
573.28,-196.30,818.13
572.91,-198.74,818.13
564.74,-197.15,818.62
