acc_x[mg],acc_y[mg],acc_z[mg]
478.85,177.14,865.59
463.97,190.56,846.31
483.24,157.75,858.51
473.24,189.59,897.43
477.63,175.92,885.48
468.36,180.68,882.43
478.24,171.78,884.26
471.16,181.05,887.55
472.02,183.73,878.40
470.31,183.24,871.20
470.55,189.83,870.47
472.87,195.44,871.08
474.82,200.08,863.15
482.75,200.45,853.39
489.10,201.54,856.20
492.03,202.89,857.78
494.47,207.16,854.49
494.22,198.13,841.43
485.44,199.35,833.87
483.00,206.79,836.92
480.80,215.21,847.78
478.24,207.16,857.66
464.94,221.06,873.28
454.69,232.41,877.18
448.35,244.00,879.86
451.77,239.61,879.62
461.28,224.60,865.35
467.38,236.68,860.34
478.12,233.39,857.78
484.58,232.65,852.66
490.56,257.54,861.08
506.06,223.26,846.44
490.56,230.34,830.82
484.22,252.91,829.84
481.90,263.40,840.46
479.95,230.09,826.43
462.38,245.83,825.45
465.06,265.59,848.75
474.70,257.42,848.63
467.26,246.56,826.92
462.14,251.69,817.77
467.02,244.98,823.62
469.94,236.44,833.02
463.97,237.17,844.00
464.45,231.92,854.85
468.11,227.77,865.59
478.97,209.23,876.08
481.29,204.96,879.01
502.88,193.49,882.18
507.52,179.95,886.94
487.76,206.55,874.86
486.66,199.10,863.52
464.33,215.82,849.73
467.63,204.72,847.17
477.02,217.40,860.47
495.32,226.07,871.57
498.25,227.04,868.88
493.49,223.50,862.30
488.24,225.70,855.83
482.88,232.29,853.63
489.71,228.63,852.05
492.76,207.52,830.33
482.88,219.23,808.86
468.60,223.87,801.78
458.96,220.33,806.18
461.04,228.02,826.92
466.89,236.68,857.54
478.73,242.17,879.50
484.22,233.51,892.67
481.90,237.05,900.36
476.53,234.97,899.14
467.75,233.39,893.28
457.50,242.66,887.55
450.42,244.73,880.23
439.81,238.75,865.47
427.00,239.85,851.07
414.80,244.98,838.75
403.82,244.73,832.89
400.89,250.22,837.16
405.41,268.16,853.51
426.39,259.62,863.52
441.88,234.36,859.98
452.62,238.14,862.17
457.62,233.26,862.42
451.52,225.70,857.29
437.00,229.60,872.30
436.52,241.32,902.68
442.62,241.93,919.51
445.67,222.04,902.68
441.64,208.01,870.23
441.03,216.79,856.07
443.59,231.31,871.81
449.94,214.23,882.06
444.20,207.52,874.01
438.71,204.84,861.08
445.54,219.36,857.90
465.31,222.28,860.34
484.22,205.33,861.20
491.54,175.07,850.22
490.56,177.27,841.19
504.47,226.19,860.71
517.28,233.26,900.97
500.44,190.93,903.17
481.17,170.68,875.35
465.06,205.69,871.20
484.10,200.45,891.82
510.94,206.91,950.99
507.52,208.13,978.93
494.95,207.89,953.67
464.82,210.45,889.01
453.35,226.68,833.63
457.99,238.88,821.91
479.58,255.35,843.87
490.07,204.35,833.63
476.41,155.55,777.75
461.16,163.72,740.91
459.94,169.34,750.42
467.14,187.15,793.49
477.87,206.79,839.48
492.15,209.60,871.57
502.64,213.01,874.25
509.84,198.01,858.88
514.35,196.18,843.63
523.26,210.21,849.61
532.41,204.96,874.50
528.99,187.51,887.55
507.03,182.02,893.41
490.07,201.42,907.19
475.68,222.89,905.97
473.60,217.65,869.74
478.97,200.08,825.21
489.59,174.22,787.14
491.90,152.87,779.82
489.46,174.34,824.60
493.98,166.53,868.64
498.49,173.61,891.94
494.10,169.82,895.11
488.24,177.02,888.16
468.36,172.14,877.91
454.69,180.07,855.34
455.30,162.38,817.64
463.23,175.44,828.87
486.29,205.81,887.79
503.49,206.55,922.93
488.49,215.82,911.10
478.48,253.88,921.71
490.32,238.63,974.41
520.57,90.40,893.41
522.16,49.17,780.68
487.63,109.56,792.51
490.32,152.13,855.10
512.52,171.04,897.68
519.35,181.90,906.70
511.18,174.58,872.67
500.44,196.79,827.40
507.15,188.86,810.45
490.32,198.98,803.13
458.23,230.95,809.96
444.45,247.17,823.62
445.42,234.61,815.33
451.28,213.38,797.39
464.58,188.12,796.54
481.53,190.08,812.52
497.52,189.34,828.38
518.74,175.07,827.40
534.60,165.43,829.60
540.22,161.41,845.09
536.68,144.57,857.66
526.67,155.67,888.28
533.02,159.58,923.30
533.63,148.23,942.57
513.38,146.16,933.91
482.88,165.07,914.27
445.06,188.25,907.31
431.51,193.13,899.38
425.90,210.21,891.70
433.95,218.01,886.70
444.45,226.55,883.28
450.55,219.23,863.03
450.91,218.62,836.07
462.87,225.58,835.46
487.27,213.99,846.44
489.34,203.86,845.09
485.07,209.35,838.87
480.19,218.50,839.97
474.95,216.55,843.63
476.78,217.89,857.42
483.00,211.55,872.30
482.02,201.30,871.57
473.60,201.06,854.85
472.14,201.79,857.78
479.95,199.47,863.27
493.25,181.66,851.80
497.88,176.66,838.75
502.52,180.32,842.65
511.42,177.27,855.22
512.03,173.61,863.76
507.40,175.56,869.13
509.72,164.94,865.71
522.04,151.16,861.32
518.74,165.92,876.33
511.67,170.43,880.96
496.17,185.07,874.01
481.17,194.10,866.08
474.21,204.96,855.95
491.29,187.15,847.05
500.69,162.87,854.37
475.19,168.12,876.81
460.67,202.52,896.58
461.89,199.84,906.83
474.46,184.10,896.82
461.89,184.22,882.79
448.96,206.18,876.45
436.27,227.41,873.03
445.18,235.58,861.20
481.17,207.40,845.46
525.58,171.65,835.82
529.72,165.19,838.99
512.16,189.71,830.82
498.49,199.23,821.79
486.29,202.64,827.40
462.87,237.66,875.84
462.01,220.33,897.55
454.21,210.94,879.74
428.22,220.58,851.32
423.10,226.92,837.77
453.11,213.01,834.11
470.43,214.23,842.17
480.92,213.74,852.90
484.95,208.50,852.17
484.22,200.93,849.97
490.07,195.93,846.31
494.59,202.64,853.02
490.68,207.64,863.27
473.60,210.82,864.49
463.60,211.43,856.07
472.87,198.49,841.56
485.80,197.52,847.66
492.03,204.11,868.27
507.76,200.20,872.91
502.03,188.12,868.88
467.38,202.03,879.50
462.62,189.10,866.57
480.56,159.94,829.84
478.85,192.03,842.53
496.78,196.91,866.57
513.01,182.63,871.45
530.82,161.41,860.34
533.99,157.14,843.39
535.21,153.96,835.70
526.43,169.58,849.85
525.33,163.72,851.56
515.94,167.38,848.27
515.57,160.92,849.00
516.55,164.58,860.10
509.72,170.56,867.54
494.95,178.24,865.35
486.66,179.58,858.39
489.59,175.31,851.32
493.98,169.70,846.80
495.44,171.65,848.51
491.78,171.78,851.19
494.95,173.61,853.15
498.49,171.78,858.51
497.39,163.97,862.66
490.93,169.95,869.62
494.71,165.07,869.37
491.78,167.02,870.47
488.73,171.41,874.01
490.93,167.63,873.76
490.32,163.72,873.52
492.27,159.09,870.84
495.93,166.90,871.32
497.52,162.50,867.91
488.85,169.21,864.86
481.78,162.38,852.05
477.02,167.87,841.07
472.02,174.95,850.34
480.19,165.55,843.14
477.39,176.41,845.22
494.83,167.87,858.64
509.84,152.62,869.74
513.01,143.47,867.54
510.69,137.49,862.54
506.30,142.86,866.20
500.44,152.99,875.23
503.62,146.52,875.96
486.54,151.40,879.74
472.14,168.60,892.31
478.24,157.14,884.38
478.85,153.84,873.28
479.09,149.08,870.59
476.53,152.50,867.91
480.80,155.79,865.47
470.31,158.60,870.10
480.92,153.96,860.10
491.05,146.03,863.03
497.27,133.96,867.30
497.27,126.64,864.37
487.63,136.40,868.40
493.00,152.13,886.33
504.84,142.62,905.36
509.59,131.64,896.82
503.86,129.69,874.01
495.08,136.64,852.41
499.47,139.32,849.36
506.54,142.50,862.78
511.91,146.28,867.91
511.67,138.71,866.20
506.06,140.30,858.88
502.15,148.72,861.32
498.74,150.55,866.93
499.59,150.91,867.54
501.54,151.77,868.03
504.59,152.74,868.03
510.33,146.28,867.54
503.37,149.57,866.44
500.20,152.87,855.34
502.40,157.26,862.66
502.03,157.01,868.03
497.15,161.04,863.64
489.22,173.85,862.42
484.22,174.83,852.29
476.04,178.61,845.58
480.80,177.51,847.66
492.39,171.90,859.00
493.98,165.07,856.44
489.46,166.04,843.26
493.37,170.31,843.75
503.13,168.73,856.32
503.37,175.92,868.15
506.91,162.63,855.71
496.30,168.73,848.27
498.00,169.09,849.73
493.00,178.73,864.74
493.12,176.41,864.98
502.76,166.41,860.59
503.98,162.50,865.59
491.90,170.07,873.76
476.29,193.86,881.33
468.48,196.05,872.79
461.16,204.72,861.56
464.82,212.52,860.22
476.90,197.88,854.61
480.44,190.81,849.12
482.63,187.76,840.58
482.27,188.12,839.85
489.71,185.44,847.90
498.25,179.95,854.24
508.50,175.31,861.44
514.47,170.92,866.93
511.55,167.87,867.30
504.71,157.99,863.88
484.58,171.90,871.81
485.19,178.73,885.60
496.17,172.87,886.82
501.30,180.44,878.77
503.74,172.39,856.93
501.05,164.58,834.85
500.32,166.77,818.74
507.40,169.09,823.87
515.57,157.14,838.14
517.40,158.36,849.24
514.47,148.60,849.12
494.34,167.26,852.78
503.49,164.70,856.93
506.30,159.94,865.59
508.37,150.55,870.35
503.25,155.06,876.33
498.25,162.50,885.11
493.49,170.31,899.26
490.68,171.29,907.31
486.54,163.60,900.97
487.63,161.04,882.91
494.47,164.46,889.38
508.50,159.82,900.36
505.81,158.84,887.06
489.10,168.36,861.56
469.21,178.97,838.75
461.16,192.03,827.04
452.74,197.76,806.30
461.04,196.30,789.58
465.55,194.35,786.78
465.43,197.76,788.85
475.92,203.37,812.76
494.34,184.46,843.75
502.40,173.97,862.17
502.03,167.02,869.74
499.10,160.43,877.79
502.27,153.35,890.11
505.57,146.89,900.36
507.76,141.76,904.26
506.54,141.89,907.68
503.37,143.72,904.51
497.15,148.11,894.63
485.19,156.65,881.45
477.63,168.12,874.98
474.46,173.24,872.06
473.60,178.36,874.01
475.31,182.02,872.79
479.46,188.98,869.62
482.39,189.22,863.76
479.95,181.78,855.46
478.85,183.24,849.36
480.07,178.97,844.12
478.61,175.68,835.46
481.66,178.73,829.97
489.71,174.83,832.16
495.81,173.12,839.73
501.30,168.97,845.83
507.40,161.53,849.61
509.35,156.53,856.44
512.16,159.45,867.42
515.69,155.43,875.96
515.57,149.82,877.06
511.91,151.40,875.72
504.96,152.62,873.76
491.05,160.19,872.06
478.73,168.73,867.79
470.19,169.58,863.76
467.99,169.58,859.86
464.21,174.34,862.05
459.33,180.56,864.61
466.04,177.39,870.23
469.82,171.41,872.54
476.65,168.12,873.15
478.85,162.50,877.91
485.80,157.01,877.67
489.22,155.79,882.18
493.25,152.74,885.11
494.83,157.62,886.70
493.37,156.89,883.89
490.07,158.72,876.33
489.95,155.06,865.96
488.00,157.38,860.34
492.51,158.11,852.29
495.20,163.72,853.02
499.71,153.48,845.34
499.83,157.50,846.44
504.71,153.96,847.05
503.49,149.94,848.75
501.54,151.65,851.07
502.76,153.60,856.68
501.30,154.70,862.78
500.93,159.70,866.57
496.05,158.97,862.91
491.78,158.36,857.42
486.78,159.70,858.15
487.27,172.39,862.17
484.95,164.94,856.32
480.31,156.28,847.53
481.90,160.92,851.80
488.61,152.38,855.34
486.78,147.62,854.98
485.80,152.74,861.20
491.42,152.26,871.45
494.10,147.99,880.11
495.56,147.62,886.57
496.42,140.18,884.99
494.71,138.10,886.33
495.08,141.40,890.97
493.86,140.79,890.60
493.73,143.23,882.06
494.34,145.79,869.37
501.18,141.15,858.51
503.98,135.05,854.61
509.47,135.18,853.51
510.81,140.30,857.66
510.94,136.40,854.61
507.64,138.10,849.00
506.06,135.66,846.44
498.74,135.91,845.22
492.88,142.74,853.88
489.95,136.27,864.37
489.22,133.96,878.03
488.61,131.03,886.21
483.36,127.12,885.96
477.39,133.59,892.80
474.95,136.52,897.07
472.63,135.79,894.50
468.72,135.42,887.06
469.21,135.42,887.31
471.29,136.03,885.48
472.02,137.98,882.91
480.68,137.62,877.67
485.32,137.01,871.81
492.39,134.44,864.98
493.00,130.17,861.69
486.05,135.91,862.91
479.58,142.01,865.96
479.58,144.45,871.57
483.24,142.74,870.35
489.71,139.81,870.10
492.39,133.96,867.91
492.64,132.74,864.86
492.51,131.03,866.32
492.88,131.64,871.08
490.93,129.32,876.57
486.17,129.20,879.25
479.09,132.86,880.47
472.63,134.44,881.08
466.41,139.20,882.91
465.92,138.84,880.11
467.50,134.93,880.35
467.38,138.35,886.09
469.70,134.93,882.06
467.14,136.88,878.16
469.21,137.74,878.03
471.29,131.64,876.81
471.65,132.74,879.25
478.36,128.47,879.25
477.87,125.66,880.60
480.56,124.68,880.11
481.90,123.22,880.47
483.61,123.83,883.04
485.68,120.41,880.47
484.71,120.78,879.01
485.19,119.44,880.11
486.66,122.49,885.60
485.07,123.71,887.79
481.66,122.12,885.96
478.12,126.27,884.62
473.48,129.93,885.72
467.63,135.18,888.40
467.02,137.01,886.09
469.70,134.20,878.16
469.33,134.93,874.50
473.24,137.98,879.62
478.85,133.47,882.67
481.29,130.91,882.30
478.48,136.40,880.35
483.00,132.25,879.38
482.02,134.57,879.01
479.22,135.54,880.35
478.85,136.40,879.38
477.75,139.20,877.42
474.34,144.33,873.40
476.78,142.01,868.76
478.00,144.94,866.57
481.41,144.45,865.83
484.83,143.84,865.83
487.63,143.59,864.61
487.27,145.30,862.66
488.73,146.89,862.42
486.90,137.98,859.49
486.17,141.40,861.44
487.27,141.89,866.32
486.54,138.35,867.79
485.19,135.54,867.42
485.80,135.54,872.30
484.34,137.25,878.16
485.80,138.10,882.43
483.97,140.30,882.55
484.22,137.25,878.89
480.92,140.91,879.01
480.19,145.06,880.11
478.97,142.74,878.03
478.24,143.47,875.72
482.27,142.50,874.62
482.63,142.37,874.98
482.88,141.64,873.15
484.58,139.81,872.42
484.22,139.81,869.49
483.73,141.15,870.59
483.97,141.89,869.98
486.78,141.03,870.84
487.76,140.79,869.25
488.73,139.08,868.03
491.29,139.57,867.30
490.93,139.93,867.05
